File: XRD 400C-Jamie DeCoster.csv
2theta (400C),intensity (400C)
0.36387,-2193.2
0.37463,-2191.77
0.38539,-2189.66
0.39615,-2189.95
0.40691,-2188.74
0.41767,-2185.97
0.42843,-2185.45
0.4392,-2185.45
0.44996,-2184.2
0.46072,-2183.85
0.47148,-2183.93
0.48224,-2182.81
0.493,-2181.93
0.50376,-2181.06
0.51452,-2180.81
0.52528,-2180.37
0.53604,-2179.46
0.5468,-2178.66
0.55756,-2177.78
0.56832,-2176.28
0.57908,-2173.63
0.58985,-2166.01
0.60061,-2151.45
0.61137,-2135.84
0.62213,-2119.74
0.63289,-2100.41
0.64365,-2082.55
0.65441,-2066.03
0.66517,-2057.15
0.67593,-2047.23
0.68669,-2036.57
0.69745,-2025.47
0.70821,-2011.79
0.71897,-1999.09
0.72974,-1988.15
0.7405,-1978.39
0.75126,-1970.78
0.76202,-1964.24
0.77278,-1959.52
0.78354,-1955.72
0.7943,-1953.96
0.80506,-1953.68
0.81582,-1954.02
0.82658,-1955.1
0.83734,-1957.14
0.8481,-1960.07
0.85886,-1963.51
0.86962,-1968.32
0.88039,-1972.99
0.89115,-1977.5
0.90191,-1982.08
0.91267,-1986.3
0.92343,-1990.54
0.93419,-1994.2
0.94495,-1997.83
0.95571,-2001.43
0.96647,-2004.4
0.97723,-2007.25
0.98799,-2010.01
0.99875,-2012.22
1.00951,-2014.54
1.02027,-2017.09
1.03104,-2019.56
1.0418,-2021.75
1.05256,-2023.84
1.06332,-2026.04
1.07408,-2027.47
1.08484,-2029.31
1.0956,-2031.02
1.10636,-2032.3
1.11712,-2034.03
1.12788,-2035.21
1.13864,-2036.31
1.1494,-2037.02
1.16016,-2038.34
1.17092,-2039.35
1.18169,-2040.17
1.19245,-2041.14
1.20321,-2042.02
1.21397,-2042.69
1.22473,-2043.56
1.23549,-2044.57
1.24625,-2045.25
1.25701,-2046.04
1.26777,-2046.94
1.27853,-2047.38
1.28929,-2048.01
1.30005,-2048.41
1.31081,-2048.85
1.32157,-2049.6
1.33234,-2050.15
1.3431,-2050.21
1.35386,-2050.58
1.36462,-2051.19
1.37538,-2051.42
1.38614,-2051.82
1.3969,-2051.93
1.40766,-2052.08
1.41842,-2052.2
1.42918,-2052.35
1.43994,-2052.37
1.4507,-2052.34
1.46146,-2052.6
1.47222,-2052.56
1.48299,-2052.16
1.49375,-2052.39
1.50451,-2052.65
1.51527,-2052.36
1.52603,-2052.3
1.53679,-2052.26
1.54755,-2052.47
1.55831,-2052.19
1.56907,-2052.1
1.57983,-2052.25
1.59059,-2052.29
1.60135,-2052
1.61211,-2051.99
1.62287,-2051.84
1.63364,-2051.81
1.6444,-2051.47
1.65516,-2051.27
1.66592,-2051.38
1.67668,-2051.18
1.68744,-2051.06
1.6982,-2050.79
1.70896,-2050.75
1.71972,-2050.35
1.73048,-2049.81
1.74124,-2049.68
1.752,-2049.39
1.76276,-2049.19
1.77352,-2049.09
1.78429,-2048.8
1.79505,-2048.35
1.80581,-2047.89
1.81657,-2047.79
1.82733,-2047.58
1.83809,-2047.46
1.84885,-2047.12
1.85961,-2046.9
1.87037,-2046.57
1.88113,-2046.23
1.89189,-2045.64
1.90265,-2045.37
1.91341,-2045.1
1.92418,-2044.76
1.93494,-2044.29
1.9457,-2044.33
1.95646,-2043.87
1.96722,-2043.43
1.97798,-2043.27
1.98874,-2043
1.9995,-2042.86
2.01026,-2042.52
2.02102,-2042.23
2.03178,-2042.4
2.04254,-2042.41
2.0533,-2042.55
2.06406,-2042.26
2.07483,-2042.62
2.08559,-2043.02
2.09635,-2042.93
2.10711,-2043.38
2.11787,-2043.18
2.12863,-2043.4
2.13939,-2043.84
2.15015,-2043.66
2.16091,-2043.87
2.17167,-2043.84
2.18243,-2043.81
2.19319,-2043.87
2.20395,-2043.92
2.21471,-2043.83
2.22548,-2043.68
2.23624,-2044.07
2.247,-2043.85
2.25776,-2043.64
2.26852,-2043.63
2.27928,-2043.29
2.29004,-2043.03
2.3008,-2042.89
2.31156,-2042.76
2.32232,-2042.19
2.33308,-2041.89
2.34384,-2041.51
2.3546,-2041.08
2.36536,-2040.72
2.37613,-2040.31
2.38689,-2039.74
2.39765,-2039.13
2.40841,-2038.51
2.41917,-2037.7
2.42993,-2036.83
2.44069,-2036.17
2.45145,-2035.28
2.46221,-2034.2
2.47297,-2033.28
2.48373,-2032.24
2.49449,-2030.86
2.50525,-2029.38
2.51601,-2027.84
2.52678,-2026.54
2.53754,-2024.98
2.5483,-2023.22
2.55906,-2021.37
2.56982,-2019.37
2.58058,-2017.27
2.59134,-2015.11
2.6021,-2012.84
2.61286,-2010.19
2.62362,-2007.57
2.63438,-2004.39
2.64514,-2001.18
2.6559,-1997.82
2.66666,-1994.41
2.67743,-1990.4
2.68819,-1985.91
2.69895,-1981.28
2.70971,-1976.21
2.72047,-1970.47
2.73123,-1964.06
2.74199,-1956.73
2.75275,-1948.4
2.76351,-1939.01
2.77427,-1928.27
2.78503,-1916.18
2.79579,-1901.92
2.80655,-1885.45
2.81731,-1866.62
2.82808,-1844.76
2.83884,-1819.46
2.8496,-1789.55
2.86036,-1754.41
2.87112,-1712.9
2.88188,-1664.09
2.89264,-1605.95
2.9034,-1536.54
2.91416,-1453.16
2.92492,-1353.18
2.93568,-1233.62
2.94644,-1090.68
2.9572,-921.6764
2.96796,-725.8169
2.97873,-503.557
2.98949,-260.637
3.00025,-7.32141
3.01101,239.423
3.02177,459.18
3.03253,626.831
3.04329,719.548
3.05405,725.646
3.06481,641.866
3.07557,479.572
3.08633,262.008
3.09709,14.05285
3.10785,-242.295
3.11862,-488.327
3.12938,-716.736
3.14014,-915.621
3.1509,-1085.39
3.16166,-1229.46
3.17242,-1349.68
3.18318,-1449.11
3.19394,-1531.59
3.2047,-1599.88
3.21546,-1656.58
3.22622,-1703.69
3.23698,-1742.83
3.24774,-1774.96
3.2585,-1801.62
3.26927,-1823.24
3.28003,-1840.55
3.29079,-1854.42
3.30155,-1864.75
3.31231,-1872.236
3.32307,-1876.89
3.33383,-1878.48
3.34459,-1877.08
3.35535,-1872.8
3.36611,-1865.23
3.37687,-1854.13
3.38763,-1838.62
3.39839,-1818
3.40915,-1791.97
3.41992,-1759.17
3.43068,-1718.7
3.44144,-1670.14
3.4522,-1613.33
3.46296,-1549.87
3.47372,-1482.65
3.48448,-1415.86
3.49524,-1356.88
3.506,-1312.62
3.51676,-1289.61
3.52752,-1292.83
3.53828,-1321.17
3.54904,-1371.26
3.5598,-1436.15
3.57057,-1507.95
3.58133,-1580.14
3.59209,-1647.88
3.60285,-1708.31
3.61361,-1760.53
3.62437,-1804.64
3.63513,-1841.57
3.64589,-1872.534
3.65665,-1897.99
3.66741,-1919.39
3.67817,-1937.35
3.68893,-1952.81
3.69969,-1966.13
3.71045,-1977.16
3.72122,-1986.77
3.73198,-1995.28
3.74274,-2002.47
3.7535,-2008.91
3.76426,-2014.67
3.77502,-2019.67
3.78578,-2023.91
3.79654,-2027.85
3.8073,-2031.21
3.81806,-2034.28
3.82882,-2036.86
3.83958,-2039.31
3.85034,-2041.46
3.8611,-2043.24
3.87187,-2044.95
3.88263,-2046.48
3.89339,-2047.85
3.90415,-2048.91
3.91491,-2050.1
3.92567,-2051.13
3.93643,-2052.19
3.94719,-2053.16
3.95795,-2054.01
3.96871,-2054.62
3.97947,-2055.4
3.99023,-2056.02
4.00099,-2056.66
4.01175,-2057.53
4.02252,-2057.97
4.03328,-2058.65
4.04404,-2059.12
4.0548,-2059.54
4.06556,-2060.05
4.07632,-2060.58
4.08708,-2060.7
4.09784,-2060.8
4.1086,-2061.06
4.11936,-2061.27
4.13012,-2061.53
4.14088,-2061.62
4.15164,-2061.81
4.1624,-2061.69
4.17317,-2061.75
4.18393,-2061.85
4.19469,-2061.85
4.20545,-2061.84
4.21621,-2061.66
4.22697,-2061.77
4.23773,-2061.65
4.24849,-2061.37
4.25925,-2061.27
4.27001,-2061.02
4.28077,-2060.71
4.29153,-2060.54
4.30229,-2060.25
4.31306,-2059.79
4.32382,-2059.53
4.33458,-2059.2
4.34534,-2058.7
4.3561,-2058.26
4.36686,-2057.79
4.37762,-2057.02
4.38838,-2056.6
4.39914,-2056.01
4.4099,-2055.21
4.42066,-2054.54
4.43142,-2053.92
4.44218,-2053.04
4.45294,-2052.07
4.46371,-2051.34
4.47447,-2050.42
4.48523,-2049.35
4.49599,-2048.24
4.50675,-2047.16
4.51751,-2045.9
4.52827,-2044.57
4.53903,-2043.2
4.54979,-2041.76
4.56055,-2040.04
4.57131,-2038.23
4.58207,-2036.52
4.59283,-2034.41
4.60359,-2032.39
4.61436,-2029.85
4.62512,-2027.35
4.63588,-2024.44
4.64664,-2021.01
4.6574,-2016.99
4.66816,-2012.48
4.67892,-2007.17
4.68968,-2001.17
4.70044,-1994.83
4.7112,-1987.28
4.72196,-1978.32
4.73272,-1967.68
4.74348,-1955.41
4.75424,-1940.92
4.76501,-1923.24
4.77577,-1902.7
4.78653,-1878.79
4.79729,-1850.35
4.80805,-1816.84
4.81881,-1777.59
4.82957,-1731.04
4.84033,-1676.68
4.85109,-1613.68
4.86185,-1540.83
4.87261,-1458
4.88337,-1365.14
4.89413,-1263.13
4.90489,-1153.99
4.91566,-1041.04
4.92642,-927.982
4.93718,-821.284
4.94794,-727.24
4.9587,-652.558
4.96946,-603.223
4.98022,-584.0763
4.99098,-597.605
5.00174,-642.295
5.0125,-713.955
5.02326,-806.691
5.03402,-913.167
5.04478,-1027.06
5.05554,-1142.43
5.06631,-1254.01
5.07707,-1357.93
5.08783,-1452.36
5.09859,-1536.36
5.10935,-1610.09
5.12011,-1673.3
5.13087,-1727.28
5.14163,-1773.47
5.15239,-1812.41
5.16315,-1845.09
5.17391,-1872.96
5.18467,-1896.3
5.19543,-1915.94
5.20619,-1932.69
5.21696,-1946.83
5.22772,-1958.93
5.23848,-1968.99
5.24924,-1977.59
5.26,-1984.88
5.27076,-1991.08
5.28152,-1996.47
5.29228,-2000.94
5.30304,-2004.61
5.3138,-2007.67
5.32456,-2010.37
5.33532,-2012.37
5.34608,-2013.96
5.35684,-2015.4
5.36761,-2016.54
5.37837,-2017.4
5.38913,-2017.95
5.39989,-2018.13
5.41065,-2017.99
5.42141,-2017.88
5.43217,-2017.87
5.44293,-2017.39
5.45369,-2016.51
5.46445,-2015.48
5.47521,-2014.27
5.48597,-2012.65
5.49673,-2010.71
5.5075,-2008.28
5.51826,-2005.34
5.52902,-2002.19
5.53978,-1998.3
5.55054,-1993.72
5.5613,-1988.34
5.57206,-1982.04
5.58282,-1974.59
5.59358,-1965.86
5.60434,-1955.62
5.6151,-1943.38
5.62586,-1929.23
5.63662,-1912.26
5.64738,-1892.06
5.65815,-1868.47
5.66891,-1840.41
5.67967,-1807.57
5.69043,-1768.81
5.70119,-1723.64
5.71195,-1671.11
5.72271,-1611.06
5.73347,-1543.03
5.74423,-1467.15
5.75499,-1384.5
5.76575,-1297.02
5.77651,-1206.66
5.78727,-1117.77
5.79803,-1034.19
5.8088,-961.011
5.81956,-903.524
5.83032,-865.499
5.84108,-850.275
5.85184,-859.278
5.8626,-891.983
5.87336,-944.694
5.88412,-1013.15
5.89488,-1092.27
5.90564,-1177.24
5.9164,-1262.78
5.92716,-1345.76
5.93792,-1422.92
5.94868,-1492.65
5.95945,-1553.71
5.97021,-1605.37
5.98097,-1648.32
5.99173,-1682.67
6.00249,-1709.5
6.01325,-1729.5
6.02401,-1743.57
6.03477,-1753.1
6.04553,-1759.3
6.05629,-1763.16
6.06705,-1766.08
6.07781,-1769.3
6.08857,-1773.6
6.09933,-1779.81
6.1101,-1788.33
6.12086,-1799.73
6.13162,-1813.51
6.14238,-1829.38
6.15314,-1846.53
6.1639,-1864.73
6.17466,-1883.19
6.18542,-1901.37
6.19618,-1918.79
6.20694,-1934.93
6.2177,-1949.92
6.22846,-1963.55
6.23922,-1975.79
6.24998,-1986.81
6.26075,-1996.43
6.27151,-2005.04
6.28227,-2012.38
6.29303,-2019.08
6.30379,-2024.78
6.31455,-2029.95
6.32531,-2034.43
6.33607,-2038.23
6.34683,-2041.69
6.35759,-2044.81
6.36835,-2047.46
6.37911,-2049.86
6.38987,-2051.89
6.40063,-2053.66
6.4114,-2055.56
6.42216,-2057.08
6.43292,-2058.49
6.44368,-2059.49
6.45444,-2060.83
6.4652,-2061.73
6.47596,-2062.63
6.48672,-2063.43
6.49748,-2064.21
6.50824,-2064.88
6.519,-2065.37
6.52976,-2065.97
6.54052,-2066.42
6.55128,-2066.75
6.56205,-2067.08
6.57281,-2067.41
6.58357,-2067.66
6.59433,-2067.92
6.60509,-2068.2
6.61585,-2068.2
6.62661,-2068.34
6.63737,-2068.2
6.64813,-2068.22
6.65889,-2068.17
6.66965,-2068.08
6.68041,-2067.94
6.69117,-2067.77
6.70194,-2067.38
6.7127,-2067.03
6.72346,-2066.51
6.73422,-2066.02
6.74498,-2065.49
6.75574,-2064.93
6.7665,-2064.03
6.77726,-2063.15
6.78802,-2061.74
6.79878,-2060.15
6.80954,-2058.4
6.8203,-2056.26
6.83106,-2053.75
6.84182,-2050.69
6.85259,-2046.85
6.86335,-2042.57
6.87411,-2037.65
6.88487,-2031.6
6.89563,-2024.29
6.90639,-2015.57
6.91715,-2005.05
6.92791,-1992.93
6.93867,-1979.07
6.94943,-1964.3
6.96019,-1947.86
6.97095,-1930.4
6.98171,-1912.43
6.99247,-1894.4
7.00324,-1877.37
7.014,-1862.24
7.02476,-1850.54
7.03552,-1842.71
7.04628,-1839.36
7.05704,-1841.1
7.0678,-1847.44
7.07856,-1857.82
7.08932,-1871.63
7.10008,-1887.6
7.11084,-1904.71
7.1216,-1922.16
7.13236,-1939.17
7.14312,-1954.87
7.15389,-1969.36
7.16465,-1982.26
7.17541,-1993.44
7.18617,-2003.03
7.19693,-2011.27
7.20769,-2018.23
7.21845,-2023.97
7.22921,-2028.77
7.23997,-2032.85
7.25073,-2035.92
7.26149,-2038.49
7.27225,-2040.48
7.28301,-2041.99
7.29377,-2042.95
7.30454,-2043.4
7.3153,-2043.56
7.32606,-2043.34
7.33682,-2042.69
7.34758,-2041.73
7.35834,-2040.59
7.3691,-2039.01
7.37986,-2036.79
7.39062,-2034.48
7.40138,-2031.48
7.41214,-2027.88
7.4229,-2023.72
7.43366,-2018.93
7.44442,-2013.23
7.45519,-2006.61
7.46595,-1999.03
7.47671,-1990.01
7.48747,-1979.81
7.49823,-1968.03
7.50899,-1954.42
7.51975,-1938.93
7.53051,-1921.22
7.54127,-1901.38
7.55203,-1878.93
7.56279,-1854.64
7.57355,-1828.04
7.58431,-1799.3
7.59507,-1769.26
7.60584,-1738.24
7.6166,-1707.24
7.62736,-1676.94
7.63812,-1648.53
7.64888,-1622.88
7.65964,-1601.3
7.6704,-1585.31
7.68116,-1574.92
7.69192,-1569.56
7.70268,-1569.4
7.71344,-1574.09
7.7242,-1582.74
7.73496,-1594.01
7.74572,-1606.46
7.75649,-1619.46
7.76725,-1631.73
7.77801,-1642.49
7.78877,-1650.89
7.79953,-1657.01
7.81029,-1661.03
7.82105,-1663.25
7.83181,-1664.36
7.84257,-1665.2
7.85333,-1666.62
7.86409,-1669.72
7.87485,-1675.11
7.88561,-1683.81
7.89637,-1695.87
7.90714,-1711.25
7.9179,-1729.47
7.92866,-1750.15
7.93942,-1772.67
7.95018,-1796.14
7.96094,-1820.06
7.9717,-1843.28
7.98246,-1865.73
7.99322,-1886.9
8.00398,-1906.52
8.01474,-1924.29
8.0255,-1940.35
8.03626,-1954.58
8.04703,-1966.99
8.05779,-1977.92
8.06855,-1987.65
8.07931,-1995.99
8.09007,-2003.37
8.10083,-2009.56
8.11159,-2014.92
8.12235,-2019.51
8.13311,-2023.45
8.14387,-2026.82
8.15463,-2029.75
8.16539,-2032.19
8.17615,-2034.18
8.18691,-2035.91
8.19768,-2037.33
8.20844,-2038.47
8.2192,-2039.36
8.22996,-2039.86
8.24072,-2040.3
8.25148,-2040.5
8.26224,-2040.41
8.273,-2040.11
8.28376,-2039.65
8.29452,-2038.88
8.30528,-2037.92
8.31604,-2036.56
8.3268,-2035.05
8.33756,-2033.15
8.34833,-2030.93
8.35909,-2028.11
8.36985,-2024.83
8.38061,-2020.96
8.39137,-2016.44
8.40213,-2011.24
8.41289,-2005.12
8.42365,-1998.12
8.43441,-1989.85
8.44517,-1980.64
8.45593,-1969.97
8.46669,-1957.75
8.47745,-1943.99
8.48821,-1928.51
8.49898,-1911.28
8.50974,-1892.3
8.5205,-1871.63
8.53126,-1849.7
8.54202,-1826.69
8.55278,-1803.02
8.56354,-1779.4
8.5743,-1756.42
8.58506,-1734.93
8.59582,-1715.94
8.60658,-1700.21
8.61734,-1688.25
8.6281,-1681.07
8.63886,-1679.22
8.64963,-1682.43
8.66039,-1690.41
8.67115,-1702.89
8.68191,-1719.12
8.69267,-1738.47
8.70343,-1759.85
8.71419,-1782.43
8.72495,-1805.52
8.73571,-1828.35
8.74647,-1850.26
8.75723,-1871.2
8.76799,-1890.39
8.77875,-1907.99
8.78951,-1923.91
8.80028,-1938.03
8.81104,-1950.25
8.8218,-1960.95
8.83256,-1970.09
8.84332,-1977.8
8.85408,-1984.15
8.86484,-1989.3
8.8756,-1993.32
8.88636,-1996.3
8.89712,-1998.1
8.90788,-1998.87
8.91864,-1998.6
8.9294,-1997.35
8.94016,-1995.08
8.95093,-1991.63
8.96169,-1987.08
8.97245,-1981.07
8.98321,-1973.76
8.99397,-1965.07
9.00473,-1954.93
9.01549,-1943.06
9.02625,-1929.6
9.03701,-1914.19
9.04777,-1897.24
9.05853,-1878.83
9.06929,-1859.18
9.08005,-1838.65
9.09081,-1818.17
9.10158,-1798.14
9.11234,-1779.58
9.1231,-1763.05
9.13386,-1749.48
9.14462,-1739.91
9.15538,-1734.54
9.16614,-1733.97
9.1769,-1738.5
9.18766,-1747.44
9.19842,-1760.44
9.20918,-1776.8
9.21994,-1795.53
9.2307,-1815.93
9.24147,-1837.18
9.25223,-1858.15
9.26299,-1878.71
9.27375,-1898.55
9.28451,-1917.18
9.29527,-1934.3
9.30603,-1949.8
9.31679,-1963.87
9.32755,-1976.32
9.33831,-1987.38
9.34907,-1997.19
9.35983,-2005.7
9.37059,-2013.05
9.38135,-2019.63
9.39212,-2025.37
9.40288,-2030.35
9.41364,-2034.67
9.4244,-2038.46
9.43516,-2041.65
9.44592,-2044.56
9.45668,-2047.08
9.46744,-2049.09
9.4782,-2051.05
9.48896,-2052.64
9.49972,-2054.13
9.51048,-2055.36
9.52124,-2056.45
9.532,-2057.33
9.54277,-2058.17
9.55353,-2058.86
9.56429,-2059.47
9.57505,-2059.94
9.58581,-2060.19
9.59657,-2060.51
9.60733,-2060.63
9.61809,-2060.64
9.62885,-2060.65
9.63961,-2060.59
9.65037,-2060.29
9.66113,-2059.9
9.67189,-2059.43
9.68265,-2058.95
9.69342,-2058.07
9.70418,-2057.19
9.71494,-2056.1
9.7257,-2054.92
9.73646,-2053.25
9.74722,-2051.31
9.75798,-2049.15
9.76874,-2046.9
9.7795,-2044.26
9.79026,-2041.27
9.80102,-2037.78
9.81178,-2033.855
9.82254,-2029.51
9.8333,-2024.76
9.84407,-2019.66
9.85483,-2014.03
9.86559,-2008.05
9.87635,-2001.91
9.88711,-1995.43
9.89787,-1989
9.90863,-1982.7
9.91939,-1976.69
9.93015,-1971.08
9.94091,-1966.18
9.95167,-1962.3
9.96243,-1959.26
9.97319,-1957.28
9.98395,-1956.6
9.99472,-1957.07
10.00548,-1958.63
10.01624,-1961.23
10.027,-1964.763
10.03776,-1968.76
10.04852,-1973.21
10.05928,-1977.9
10.07004,-1982.49
10.0808,-1987.04
10.09156,-1991.1
10.10232,-1994.87
10.11308,-1998.17
10.12384,-2000.81
10.1346,-2002.87
10.14537,-2004.41
10.15613,-2005.12
10.16689,-2004.89
10.17765,-2003.91
10.18841,-2002.18
10.19917,-1999.6
10.20993,-1996.05
10.22069,-1991.35
10.23145,-1985.76
10.24221,-1979.14
10.25297,-1971.28
10.26373,-1962.21
10.27449,-1951.78
10.28525,-1940.16
10.29602,-1927.11
10.30678,-1913.02
10.31754,-1897.54
10.3283,-1881.07
10.33906,-1863.73
10.34982,-1845.9
10.36058,-1827.88
10.37134,-1809.83
10.3821,-1792.64
10.39286,-1776.67
10.40362,-1762.13
10.41438,-1749.66
10.42514,-1739.66
10.43591,-1732.39
10.44667,-1727.88
10.45743,-1726.26
10.46819,-1727.04
10.47895,-1730.22
10.48971,-1735.28
10.50047,-1742.04
10.51123,-1750
10.52199,-1758.83
10.53275,-1768.37
10.54351,-1778.6
10.55427,-1789.39
10.56503,-1800.44
10.57579,-1811.81
10.58656,-1823.8
10.59732,-1836.06
10.60808,-1848.9
10.61884,-1861.97
10.6296,-1875.26
10.64036,-1888.57
10.65112,-1901.84
10.66188,-1914.57
10.67264,-1926.9
10.6834,-1938.74
10.69416,-1949.9
10.70492,-1960.22
10.71568,-1969.86
10.72644,-1978.66
10.73721,-1986.6
10.74797,-1993.83
10.75873,-2000.34
10.76949,-2006.14
10.78025,-2011.12
10.79101,-2015.7
10.80177,-2019.57
10.81253,-2022.95
10.82329,-2025.8
10.83405,-2028.27
10.84481,-2030.2
10.85557,-2031.85
10.86633,-2033.08
10.87709,-2033.9
10.88786,-2034.44
10.89862,-2034.586
10.90938,-2034.17
10.92014,-2033.39
10.9309,-2032.16
10.94166,-2030.58
10.95242,-2028.59
10.96318,-2026
10.97394,-2022.81
10.9847,-2018.95
10.99546,-2014.53
11.00622,-2009.46
11.01698,-2003.76
11.02774,-1997.38
11.03851,-1990.27
11.04927,-1982.72
11.06003,-1974.84
11.07079,-1966.41
11.08155,-1957.94
11.09231,-1949.67
11.10307,-1941.75
11.11383,-1934.67
11.12459,-1928.51
11.13535,-1923.8
11.14611,-1920.46
11.15687,-1918.69
11.16763,-1918.86
11.17839,-1920.73
11.18916,-1924.22
11.19992,-1929.29
11.21068,-1935.42
11.22144,-1942.36
11.2322,-1949.89
11.24296,-1957.89
11.25372,-1965.87
11.26448,-1973.62
11.27524,-1981.04
11.286,-1987.76
11.29676,-1993.96
11.30752,-1999.41
11.31828,-2004.13
11.32904,-2008.12
11.33981,-2011.23
11.35057,-2013.55
11.36133,-2015.26
11.37209,-2016.39
11.38285,-2016.54
11.39361,-2016.11
11.40437,-2015.08
11.41513,-2013.3
11.42589,-2010.75
11.43665,-2007.76
11.44741,-2004.15
11.45817,-2000.07
11.46893,-1995.6
11.47969,-1990.78
11.49046,-1985.61
11.50122,-1980.34
11.51198,-1975.01
11.52274,-1969.92
11.5335,-1964.79
11.54426,-1960.06
11.55502,-1955.66
11.56578,-1951.96
11.57654,-1948.67
11.5873,-1945.92
11.59806,-1943.76
11.60882,-1942.46
11.61958,-1941.69
11.63035,-1941.21
11.64111,-1941.58
11.65187,-1942.52
11.66263,-1943.96
11.67339,-1945.96
11.68415,-1948.49
11.69491,-1951.65
11.70567,-1955.3
11.71643,-1959.66
11.72719,-1964.41
11.73795,-1969.7
11.74871,-1975.37
11.75947,-1981.23
11.77023,-1987.3
11.781,-1993.29
11.79176,-1999.29
11.80252,-2005.18
11.81328,-2010.89
11.82404,-2016.26
11.8348,-2021.195
11.84556,-2025.9
11.85632,-2030.22
11.86708,-2034.14
11.87784,-2037.66
11.8886,-2040.76
11.89936,-2043.51
11.91012,-2046.04
11.92088,-2048.2
11.93165,-2050.02
11.94241,-2051.53
11.95317,-2052.77
11.96393,-2053.85
11.97469,-2054.82
11.98545,-2055.48
11.99621,-2055.96
12.00697,-2056.21
12.01773,-2056.25
12.02849,-2056.16
12.03925,-2056.08
12.05001,-2055.44
12.06077,-2054.9
12.07153,-2054.21
12.0823,-2053.32
12.09306,-2052.29
12.10382,-2051.21
12.11458,-2049.97
12.12534,-2048.62
12.1361,-2047.19
12.14686,-2045.94
12.15762,-2044.49
12.16838,-2043.04
12.17914,-2041.64
12.1899,-2040.41
12.20066,-2039.38
12.21142,-2038.44
12.22218,-2037.53
12.23295,-2036.88
12.24371,-2036.52
12.25447,-2036.41
12.25985,-2036.37