File: XRD 700C-Jamie DeCoster.csv
2theta (700C),intensity (700C)
0.2135,-1324.47
0.22435,-1317.61
0.2352,-1314.77
0.24605,-1312.95
0.25691,-1310.32
0.26776,-1307.95
0.27861,-1304.95
0.28946,-1302.18
0.30031,-1300.72
0.31117,-1299.55
0.32202,-1297.03
0.33287,-1295.76
0.34372,-1294.47
0.35458,-1292.92
0.36543,-1291.31
0.37628,-1289.41
0.38713,-1286.44
0.39798,-1278.74
0.40884,-1260.27
0.41969,-1228.72
0.43054,-1190.67
0.44139,-1150.36
0.45224,-1118.22
0.4631,-1096.96
0.47395,-1075.4
0.4848,-1067.72
0.49565,-1065.5
0.5065,-1070.01
0.51736,-1077.38
0.52821,-1088.02
0.53906,-1095.45
0.54991,-1102.96
0.56076,-1109.96
0.57162,-1116.5
0.58247,-1122.46
0.59332,-1126.59
0.60417,-1131.34
0.61502,-1134.58
0.62588,-1140.24
0.63673,-1145.45
0.64758,-1150.84
0.65843,-1156.96
0.66928,-1163.26
0.68014,-1168.5
0.69099,-1173.75
0.70184,-1178.43
0.71269,-1182.86
0.72355,-1186.72
0.7344,-1190.38
0.74525,-1193.32
0.7561,-1196.66
0.76695,-1199.55
0.77781,-1202.32
0.78866,-1204.96
0.79951,-1207.53
0.81036,-1209.27
0.82121,-1211.43
0.83207,-1213.17
0.84292,-1214.51
0.85377,-1216.05
0.86462,-1217.8
0.87547,-1219.29
0.88633,-1220.62
0.89718,-1222.15
0.90803,-1223.19
0.91888,-1223.96
0.92973,-1225.06
0.94059,-1226.37
0.95144,-1227.22
0.96229,-1228.21
0.97314,-1228.66
0.98399,-1229.52
0.99485,-1230.25
1.0057,-1230.77
1.01655,-1231.61
1.0274,-1232.06
1.03825,-1232.3
1.04911,-1232.59
1.05996,-1233.14
1.07081,-1233.86
1.08166,-1234.58
1.09252,-1235.31
1.10337,-1236.04
1.11422,-1236.69
1.12507,-1236.93
1.13592,-1237.31
1.14678,-1237.54
1.15763,-1237.97
1.16848,-1238.64
1.17933,-1239.08
1.19018,-1239.46
1.20104,-1239.58
1.21189,-1239.75
1.22274,-1239.94
1.23359,-1240.28
1.24444,-1240.39
1.2553,-1240.41
1.26615,-1240.93
1.277,-1241.14
1.28785,-1241.48
1.2987,-1241.64
1.30956,-1242.11
1.32041,-1242.29
1.33126,-1242.51
1.34211,-1242.83
1.35296,-1243.14
1.36382,-1243.22
1.37467,-1243.52
1.38552,-1243.67
1.39637,-1244
1.40722,-1244.26
1.41808,-1244.44
1.42893,-1244.18
1.43978,-1244.61
1.45063,-1244.92
1.46149,-1245.32
1.47234,-1245.26
1.48319,-1245.4
1.49404,-1245.42
1.50489,-1245.26
1.51575,-1245.5
1.5266,-1245.76
1.53745,-1245.92
1.5483,-1245.93
1.55915,-1246.44
1.57001,-1246.38
1.58086,-1246.61
1.59171,-1246.52
1.60256,-1246.68
1.61341,-1246.71
1.62427,-1246.63
1.63512,-1246.79
1.64597,-1246.86
1.65682,-1246.65
1.66767,-1246.76
1.67853,-1246.84
1.68938,-1246.92
1.70023,-1246.835
1.71108,-1247.03
1.72193,-1247.09
1.73279,-1247.39
1.74364,-1247.27
1.75449,-1247.41
1.76534,-1247.54
1.77619,-1247.49
1.78705,-1247.67
1.7979,-1247.7
1.80875,-1247.57
1.8196,-1247.49
1.83046,-1247.69
1.84131,-1247.45
1.85216,-1247.52
1.86301,-1247.74
1.87386,-1247.75
1.88472,-1247.6
1.89557,-1247.57
1.90642,-1247.87
1.91727,-1247.75
1.92812,-1247.51
1.93898,-1247.61
1.94983,-1247.66
1.96068,-1247.64
1.97153,-1247.43
1.98238,-1247.27
1.99324,-1247.34
2.00409,-1247.19
2.01494,-1247.23
2.02579,-1247.28
2.03664,-1247.19
2.0475,-1247.24
2.05835,-1247.4
2.0692,-1247.57
2.08005,-1247.74
2.0909,-1247.72
2.10176,-1247.79
2.11261,-1247.99
2.12346,-1248.31
2.13431,-1248.35
2.14516,-1248.41
2.15602,-1248.41
2.16687,-1248.54
2.17772,-1248.45
2.18857,-1248.66
2.19943,-1248.68
2.21028,-1248.56
2.22113,-1248.72
2.23198,-1248.96
2.24283,-1248.79
2.25369,-1248.76
2.26454,-1248.78
2.27539,-1248.83
2.28624,-1248.64
2.29709,-1248.69
2.30795,-1248.88
2.3188,-1248.84
2.32965,-1248.7
2.3405,-1248.62
2.35135,-1248.77
2.36221,-1248.83
2.37306,-1248.73
2.38391,-1248.56
2.39476,-1248.53
2.40561,-1248.35
2.41647,-1248.06
2.42732,-1248.1
2.43817,-1247.86
2.44902,-1247.72
2.45987,-1247.46
2.47073,-1247.23
2.48158,-1247.06
2.49243,-1247.08
2.50328,-1246.79
2.51414,-1246.27
2.52499,-1245.9
2.53584,-1245.65
2.54669,-1245.32
2.55754,-1244.84
2.5684,-1244.37
2.57925,-1243.81
2.5901,-1243.33
2.60095,-1242.82
2.6118,-1242.07
2.62266,-1241.39
2.63351,-1240.6
2.64436,-1239.78
2.65521,-1238.86
2.66606,-1237.71
2.67692,-1236.77
2.68777,-1235.5
2.69862,-1233.97
2.70947,-1232.46
2.72032,-1230.8
2.73118,-1228.79
2.74203,-1226.51
2.75288,-1224.11
2.76373,-1221.27
2.77458,-1218.06
2.78544,-1214.45
2.79629,-1210.31
2.80714,-1205.597
2.81799,-1199.99
2.82884,-1193.74
2.8397,-1186.68
2.85055,-1178.61
2.8614,-1168.67
2.87225,-1157.32
2.88311,-1143.5
2.89396,-1126.48
2.90481,-1105.1
2.91566,-1076.4
2.92651,-1037.53
2.93737,-984.433
2.94822,-908.248
2.95907,-799.443
2.96992,-646.675
2.98077,-440.563
2.99163,-177.976
3.00248,128.316
3.01333,446.664
3.02418,728.67
3.03503,946.026
3.04589,1070.13
3.05674,1088.46
3.06759,993.505
3.07844,796.8419
3.08929,512.352
3.10015,188.455
3.111,-130.7643
3.12185,-412.196
3.1327,-634.915
3.14355,-795.767
3.15441,-911.02
3.16526,-991.551
3.17611,-1047.29
3.18696,-1086.99
3.19781,-1114.23
3.20867,-1134.84
3.21952,-1150.23
3.23037,-1162.43
3.24122,-1171.88
3.25208,-1179.5
3.26293,-1185.64
3.27378,-1190.48
3.28463,-1194.59
3.29548,-1197.57
3.30634,-1199.56
3.31719,-1200.98
3.32804,-1201.93
3.33889,-1201.78
3.34974,-1200.92
3.3606,-1199.29
3.37145,-1196.47
3.3823,-1191.65
3.39315,-1184.77
3.404,-1174.69
3.41486,-1159.46
3.42571,-1136.43
3.43656,-1102.77
3.44741,-1054.73
3.45826,-989.859
3.46912,-909.729
3.47997,-822.325
3.49082,-738.53
3.50167,-668.902
3.51252,-624.175
3.52338,-606.894
3.53423,-618.629
3.54508,-661.1
3.55593,-730.239
3.56678,-817.102
3.57764,-908.076
3.58849,-990.797
3.59934,-1058.9
3.61019,-1110.39
3.62105,-1146.87
3.6319,-1172.59
3.64275,-1190.05
3.6536,-1202.5
3.66445,-1211.41
3.67531,-1217.96
3.68616,-1223.13
3.69701,-1227.3
3.70786,-1230.55
3.71871,-1233.42
3.72957,-1235.79
3.74042,-1237.85
3.75127,-1239.66
3.76212,-1241.14
3.77297,-1242.57
3.78383,-1243.71
3.79468,-1244.79
3.80553,-1245.75
3.81638,-1246.66
3.82723,-1247.44
3.83809,-1248.11
3.84894,-1248.83
3.85979,-1249.41
3.87064,-1249.91
3.88149,-1250.48
3.89235,-1250.96
3.9032,-1251.22
3.91405,-1251.64
3.9249,-1251.92
3.93575,-1252.24
3.94661,-1252.58
3.95746,-1252.88
3.96831,-1253.11
3.97916,-1253.37
3.99002,-1253.44
4.00087,-1253.65
4.01172,-1253.86
4.02257,-1254.04
4.03342,-1254.23
4.04428,-1254.32
4.05513,-1254.39
4.06598,-1254.63
4.07683,-1254.62
4.08768,-1254.7
4.09854,-1254.84
4.10939,-1254.92
4.12024,-1255.04
4.13109,-1255.1
4.14194,-1255.1
4.1528,-1255.09
4.16365,-1255.15
4.1745,-1255.12
4.18535,-1255.08
4.1962,-1255.08
4.20706,-1255.05
4.21791,-1254.95
4.22876,-1254.84
4.23961,-1254.89
4.25046,-1254.63
4.26132,-1254.55
4.27217,-1254.4
4.28302,-1254.45
4.29387,-1254.3
4.30472,-1254.28
4.31558,-1254.06
4.32643,-1254
4.33728,-1253.69
4.34813,-1253.59
4.35899,-1253.32
4.36984,-1253.21
4.38069,-1252.99
4.39154,-1252.77
4.40239,-1252.66
4.41325,-1252.43
4.4241,-1252.29
4.43495,-1252.06
4.4458,-1251.74
4.45665,-1251.45
4.46751,-1251.28
4.47836,-1251.1
4.48921,-1250.86
4.50006,-1250.46
4.51091,-1250.14
4.52177,-1249.86
4.53262,-1249.59
4.54347,-1249.14
4.55432,-1248.64
4.56517,-1248.13
4.57603,-1247.69
4.58688,-1247.04
4.59773,-1246.44
4.60858,-1245.74
4.61943,-1244.89
4.63029,-1244.11
4.64114,-1243.04
4.65199,-1242.09
4.66284,-1240.98
4.67369,-1239.67
4.68455,-1238.26
4.6954,-1236.61
4.70625,-1234.78
4.7171,-1232.67
4.72796,-1230.42
4.73881,-1227.56
4.74966,-1224.34
4.76051,-1220.76
4.77136,-1216.36
4.78222,-1211.09
4.79307,-1204.74
4.80392,-1197
4.81477,-1187.18
4.82562,-1174.75
4.83648,-1158.5
4.84733,-1136.83
4.85818,-1107.34
4.86903,-1067.07
4.87988,-1011.93
4.89074,-936.936
4.90159,-838.08
4.91244,-713.433
4.92329,-565.103
4.93414,-402.675
4.945,-241.763
4.95585,-102.023
4.9667,1.79686
4.97755,57.96592
4.9884,60.93089
4.99926,10.68919
5.01011,-88.67214
5.02096,-227.995
5.03181,-388.894
5.04267,-552.416
5.05352,-702.233
5.06437,-829.145
5.07522,-930.0732
5.08607,-1006.74
5.09693,-1063.7
5.10778,-1105.15
5.11863,-1135.35
5.12948,-1157.66
5.14033,-1174.36
5.15119,-1187.04
5.16204,-1196.84
5.17289,-1204.77
5.18374,-1211.14
5.19459,-1216.41
5.20545,-1220.68
5.2163,-1224.29
5.22715,-1227.26
5.238,-1229.9
5.24885,-1231.99
5.25971,-1233.95
5.27056,-1235.58
5.28141,-1236.97
5.29226,-1237.95
5.30311,-1239.09
5.31397,-1240.09
5.32482,-1240.76
5.33567,-1241.49
5.34652,-1241.98
5.35737,-1242.17
5.36823,-1242.54
5.37908,-1242.76
5.38993,-1243.07
5.40078,-1243.14
5.41164,-1243.18
5.42249,-1242.99
5.43334,-1242.78
5.44419,-1242.65
5.45504,-1242.31
5.4659,-1242.09
5.47675,-1241.69
5.4876,-1240.98
5.49845,-1240.28
5.5093,-1239.58
5.52016,-1238.76
5.53101,-1237.75
5.54186,-1236.51
5.55271,-1235.2
5.56356,-1233.77
5.57442,-1231.95
5.58527,-1229.89
5.59612,-1227.59
5.60697,-1224.69
5.61782,-1221.47
5.62868,-1217.54
5.63953,-1212.83
5.65038,-1207.29
5.66123,-1200.53
5.67208,-1192.11
5.68294,-1181.68
5.69379,-1168.26
5.70464,-1150.84
5.71549,-1127.55
5.72634,-1096.27
5.7372,-1053.65
5.74805,-996.58
5.7589,-920.934
5.76975,-825.233
5.78061,-710.236
5.79146,-581.851
5.80231,-450.699
5.81316,-332.925
5.82401,-241.967
5.83487,-186.199
5.84572,-170.954
5.85657,-198.076
5.86742,-265.431
5.87827,-366.05
5.88913,-489.965
5.89998,-620.895
5.91083,-744.743
5.92168,-852.752
5.93253,-940.543
5.94339,-1007.674
5.95424,-1057.14
5.96509,-1092.15
5.97594,-1115.67
5.98679,-1130.3
5.99765,-1137.75
6.0085,-1139.17
6.01935,-1134.73
6.0302,-1125.22
6.04105,-1111.44
6.05191,-1094.94
6.06276,-1077.37
6.07361,-1061.58
6.08446,-1049.65
6.09531,-1043.28
6.10617,-1043.39
6.11702,-1049.81
6.12787,-1062.69
6.13872,-1081.09
6.14958,-1103.19
6.16043,-1126.5
6.17128,-1149.16
6.18213,-1169.22
6.19298,-1186.32
6.20384,-1200.05
6.21469,-1210.92
6.22554,-1219.44
6.23639,-1225.96
6.24724,-1231.14
6.2581,-1235.08
6.26895,-1238.28
6.2798,-1240.82
6.29065,-1242.88
6.3015,-1244.63
6.31236,-1246.1
6.32321,-1247.35
6.33406,-1248.42
6.34491,-1249.54
6.35576,-1250.36
6.36662,-1251.09
6.37747,-1251.81
6.38832,-1252.34
6.39917,-1252.81
6.41002,-1253.33
6.42088,-1253.69
6.43173,-1254.02
6.44258,-1254.35
6.45343,-1254.75
6.46428,-1255.04
6.47514,-1255.25
6.48599,-1255.56
6.49684,-1255.72
6.50769,-1255.89
6.51855,-1256.04
6.5294,-1256.24
6.54025,-1256.366
6.5511,-1256.49
6.56195,-1256.53
6.57281,-1256.61
6.58366,-1256.75
6.59451,-1256.85
6.60536,-1256.8
6.61621,-1256.83
6.62707,-1256.91
6.63792,-1256.89
6.64877,-1256.89
6.65962,-1256.82
6.67047,-1256.84
6.68133,-1256.71
6.69218,-1256.52
6.70303,-1256.54
6.71388,-1256.38
6.72473,-1256.28
6.73559,-1256.14
6.74644,-1255.88
6.75729,-1255.54
6.76814,-1255.35
6.77899,-1255.02
6.78985,-1254.59
6.8007,-1254.19
6.81155,-1253.74
6.8224,-1253.14
6.83325,-1252.37
6.84411,-1251.53
6.85496,-1250.38
6.86581,-1249.11
6.87666,-1247.61
6.88752,-1245.75
6.89837,-1243.46
6.90922,-1240.14
6.92007,-1236.1
6.93092,-1230.42
6.94178,-1222.71
6.95263,-1211.99
6.96348,-1197.76
6.97433,-1179.18
6.98518,-1156.58
6.99604,-1130.79
7.00689,-1104.48
7.01774,-1080.36
7.02859,-1061.1
7.03944,-1049.13
7.0503,-1045.25
7.06115,-1049.81
7.072,-1062.68
7.08285,-1082.57
7.0937,-1107.1
7.10456,-1133.27
7.11541,-1158.49
7.12626,-1180.39
7.13711,-1198.13
7.14796,-1211.92
7.15882,-1222.05
7.16967,-1229.24
7.18052,-1234.67
7.19137,-1238.61
7.20222,-1241.41
7.21308,-1243.48
7.22393,-1245.09
7.23478,-1246.22
7.24563,-1247.2
7.25649,-1248.04
7.26734,-1248.58
7.27819,-1248.98
7.28904,-1249.08
7.29989,-1249.16
7.31075,-1249.23
7.3216,-1249.22
7.33245,-1249.05
7.3433,-1248.71
7.35415,-1248.37
7.36501,-1247.99
7.37586,-1247.35
7.38671,-1246.73
7.39756,-1245.92
7.40841,-1244.99
7.41927,-1243.99
7.43012,-1242.7
7.44097,-1241.08
7.45182,-1239.37
7.46267,-1237.26
7.47353,-1234.76
7.48438,-1231.77
7.49523,-1228
7.50608,-1223.61
7.51693,-1218.15
7.52779,-1211.26
7.53864,-1202.58
7.54949,-1191.78
7.56034,-1177.92
7.5712,-1160.31
7.58205,-1137.81
7.5929,-1109.85
7.60375,-1075.76
7.6146,-1035.99
7.62546,-992.04
7.63631,-946.487
7.64716,-902.945
7.65801,-866.391
7.66886,-839.84
7.67972,-825.7343
7.69057,-825.225
7.70142,-838.048
7.71227,-862.627
7.72312,-896.23
7.73398,-934.776
7.74483,-973.532
7.75568,-1008.41
7.76653,-1036.46
7.77738,-1055.81
7.78824,-1065.7
7.79909,-1066.26
7.80994,-1057.89
7.82079,-1042.15
7.83164,-1021.52
7.8425,-999.082
7.85335,-978.187
7.8642,-962.382
7.87505,-954.719
7.8859,-954.472
7.89676,-963.738
7.90761,-981.909
7.91846,-1007.26
7.92931,-1037.64
7.94017,-1069.97
7.95102,-1101.14
7.96187,-1129.23
7.97272,-1153.4
7.98357,-1172.98
7.99443,-1188.54
8.00528,-1200.61
8.01613,-1210.07
8.02698,-1217.48
8.03783,-1223.22
8.04869,-1227.8
8.05954,-1231.51
8.07039,-1234.33
8.08124,-1236.74
8.09209,-1238.82
8.10295,-1240.41
8.1138,-1241.73
8.12465,-1243.01
8.1355,-1244.06
8.14635,-1244.84
8.15721,-1245.53
8.16806,-1246.11
8.17891,-1246.55
8.18976,-1246.94
8.20061,-1247.36
8.21147,-1247.66
8.22232,-1247.79
8.23317,-1247.9
8.24402,-1247.96
8.25487,-1247.94
8.26573,-1247.91
8.27658,-1247.78
8.28743,-1247.58
8.29828,-1247.35
8.30914,-1246.98
8.31999,-1246.46
8.33084,-1245.97
8.34169,-1245.5
8.35254,-1244.77
8.3634,-1243.88
8.37425,-1242.86
8.3851,-1241.7
8.39595,-1240.23
8.4068,-1238.62
8.41766,-1236.64
8.42851,-1234.27
8.43936,-1231.36
8.45021,-1227.88
8.46106,-1223.74
8.47192,-1218.59
8.48277,-1212.19
8.49362,-1204.3
8.50447,-1194.22
8.51532,-1181.52
8.52618,-1165.53
8.53703,-1145.75
8.54788,-1121
8.55873,-1091.54
8.56958,-1058.08
8.58044,-1021.31
8.59129,-983.865
8.60214,-949.253
8.61299,-920.704
8.62384,-900.968
8.6347,-892
8.64555,-894.465
8.6564,-908.164
8.66725,-931.837
8.67811,-963.4767
8.68896,-999.682
8.69981,-1036.84
8.71066,-1072.33
8.72151,-1104.09
8.73237,-1131.2
8.74322,-1153.64
8.75407,-1171.77
8.76492,-1186.05
8.77577,-1197.31
8.78663,-1206.18
8.79748,-1213.19
8.80833,-1218.76
8.81918,-1223.01
8.83003,-1226.55
8.84089,-1229.38
8.85174,-1231.46
8.86259,-1233.14
8.87344,-1234.36
8.88429,-1235.19
8.89515,-1235.82
8.906,-1236.08
8.91685,-1236.06
8.9277,-1235.67
8.93855,-1234.94
8.94941,-1234.02
8.96026,-1232.57
8.97111,-1230.64
8.98196,-1228.16
8.99281,-1224.98
9.00367,-1220.93
9.01452,-1215.68
9.02537,-1208.98
9.03622,-1200.27
9.04708,-1188.87
9.05793,-1174.26
9.06878,-1155.61
9.07963,-1132.63
9.09048,-1105.1
9.10134,-1073.89
9.11219,-1041.67
9.12304,-1009.15
9.13389,-980.877
9.14474,-959.873
9.1556,-947.573
9.16645,-945.685
9.1773,-954.4439
9.18815,-972.294
9.199,-998.24
9.20986,-1029.74
9.22071,-1062.98
9.23156,-1095.42
9.24241,-1124.86
9.25326,-1149.99
9.26412,-1170.56
9.27497,-1187.11
9.28582,-1200.01
9.29667,-1210.24
9.30752,-1218.15
9.31838,-1224.36
9.32923,-1229.27
9.34008,-1233.18
9.35093,-1236.53
9.36178,-1239.21
9.37264,-1241.54
9.38349,-1243.32
9.39434,-1244.87
9.40519,-1246.24
9.41605,-1247.36
9.4269,-1248.38
9.43775,-1249.31
9.4486,-1250.04
9.45945,-1250.69
9.47031,-1251.22
9.48116,-1251.75
9.49201,-1252.19
9.50286,-1252.54
9.51371,-1252.88
9.52457,-1253.23
9.53542,-1253.44
9.54627,-1253.6
9.55712,-1253.74
9.56797,-1253.92
9.57883,-1254.05
9.58968,-1254.17
9.60053,-1254.24
9.61138,-1254.23
9.62223,-1254.23
9.63309,-1254.15
9.64394,-1254.054
9.65479,-1254.05
9.66564,-1253.99
9.67649,-1253.75
9.68735,-1253.56
9.6982,-1253.3
9.70905,-1252.97
9.7199,-1252.54
9.73075,-1252.18
9.74161,-1251.63
9.75246,-1250.99
9.76331,-1250.29
9.77416,-1249.46
9.78502,-1248.3
9.79587,-1247.02
9.80672,-1245.4
9.81757,-1243.54
9.82842,-1241.16
9.83928,-1238.3
9.85013,-1234.7
9.86098,-1230.23
9.87183,-1224.89
9.88268,-1218.45
9.89354,-1210.77
9.90439,-1202.05
9.91524,-1192.44
9.92609,-1182.38
9.93694,-1172.87
9.9478,-1164.24
9.95865,-1157.57
9.9695,-1153.62
9.98035,-1152.49
9.9912,-1154.22
10.00206,-1158.85
10.01291,-1165.71
10.02376,-1174.3
10.03461,-1183.9
10.04546,-1193.26
10.05632,-1202.12
10.06717,-1209.98
10.07802,-1216.64
10.08887,-1222.09
10.09973,-1226.36
10.11058,-1229.75
10.12143,-1232.35
10.13228,-1234.22
10.14313,-1235.47
10.15399,-1236.32
10.16484,-1236.66
10.17569,-1236.66
10.18654,-1236.3
10.19739,-1235.5
10.20825,-1234.41
10.2191,-1232.94
10.22995,-1230.96
10.2408,-1228.51
10.25165,-1225.39
10.26251,-1221.6
10.27336,-1216.89
10.28421,-1211.07
10.29506,-1203.95
10.30591,-1195.04
10.31677,-1184.03
10.32762,-1170.53
10.33847,-1154.08
10.34932,-1134.5
10.36017,-1111.71
10.37103,-1086.37
10.38188,-1059.52
10.39273,-1032.86
10.40358,-1008.19
10.41443,-988.063
10.42529,-974.077
10.43614,-966.923
10.44699,-966.86
10.45784,-973.774
10.4687,-986.454
10.47955,-1002.91
10.4904,-1020.96
10.50125,-1038.34
10.5121,-1053.11
10.52296,-1064.67
10.53381,-1072.82
10.54466,-1078.33
10.55551,-1082.27
10.56636,-1086.13
10.57722,-1090.79
10.58807,-1097.06
10.59892,-1105.43
10.60977,-1116.07
10.62062,-1128.6
10.63148,-1142.32
10.64233,-1156.29
10.65318,-1169.9
10.66403,-1182.43
10.67488,-1193.53
10.68574,-1202.986
10.69659,-1210.88
10.70744,-1217.47
10.71829,-1222.95
10.72914,-1227.41
10.74,-1231.05
10.75085,-1234.06
10.7617,-1236.51
10.77255,-1238.53
10.7834,-1240.23
10.79426,-1241.66
10.80511,-1242.8
10.81596,-1243.85
10.82681,-1244.64
10.83767,-1245.27
10.84852,-1245.76
10.85937,-1246.12
10.87022,-1246.39
10.88107,-1246.57
10.89193,-1246.58
10.90278,-1246.52
10.91363,-1246.3
10.92448,-1245.99
10.93533,-1245.55
10.94619,-1244.9
10.95704,-1244.09
10.96789,-1243.07
10.97874,-1241.73
10.98959,-1239.94
11.00045,-1237.82
11.0113,-1235.05
11.02215,-1231.67
11.033,-1227.26
11.04385,-1221.79
11.05471,-1214.86
11.06556,-1206.23
11.07641,-1195.8
11.08726,-1183.72
11.09811,-1170.23
11.10897,-1155.99
11.11982,-1142.34
11.13067,-1130.3
11.14152,-1121.12
11.15237,-1115.87
11.16323,-1114.83
11.17408,-1118.06
11.18493,-1125.55
11.19578,-1136.34
11.20664,-1149.44
11.21749,-1163.54
11.22834,-1177.34
11.23919,-1190.1
11.25004,-1201.22
11.2609,-1210.49
11.27175,-1218.18
11.2826,-1224.12
11.29345,-1228.79
11.3043,-1232.36
11.31516,-1235.13
11.32601,-1237.19
11.33686,-1238.53
11.34771,-1239.49
11.35856,-1240.09
11.36942,-1240.31
11.38027,-1240.07
11.39112,-1239.6
11.40197,-1238.68
11.41282,-1237.28
11.42368,-1235.48
11.43453,-1233.14
11.44538,-1230.22
11.45623,-1226.47
11.46708,-1222.17
11.47794,-1216.86
11.48879,-1210.75
11.49964,-1203.86
11.51049,-1196.35
11.52134,-1188.52
11.5322,-1180.89
11.54305,-1173.84
11.5539,-1167.93
11.56475,-1163.46
11.57561,-1160.46
11.58646,-1159.15
11.59731,-1159.41
11.60816,-1160.81
11.61901,-1162.79
11.62987,-1164.92
11.64072,-1166.62
11.65157,-1167.65
11.66242,-1168.03
11.67327,-1168.29
11.68413,-1168.8
11.69498,-1170.02
11.70583,-1172.24
11.71668,-1175.56
11.72753,-1180.34
11.73839,-1186.4
11.74924,-1193.3
11.76009,-1200.71
11.77094,-1208.12
11.78179,-1215.16
11.79265,-1221.59
11.8035,-1227.13
11.81435,-1231.89
11.8252,-1235.83
11.83605,-1239.19
11.84691,-1241.8
11.85776,-1243.87
11.86861,-1245.7
11.87946,-1247.13
11.89031,-1248.34
11.90117,-1249.37
11.91202,-1250.26
11.92287,-1250.92
11.93372,-1251.47
11.94458,-1251.84
11.95543,-1252.19
11.96628,-1252.46
11.97713,-1252.72
11.98798,-1252.74
11.99884,-1252.78
12.00969,-1252.89
12.02054,-1252.75
12.03139,-1252.56
12.04224,-1252.31
12.0531,-1251.89
12.06395,-1251.37
12.0748,-1250.71
12.08565,-1250.01
12.0965,-1249.16
12.10736,-1248.04
12.11821,-1246.7
12.12906,-1245.09
12.13991,-1243.3
12.15076,-1241.23
12.16162,-1239.05
12.17247,-1236.86
12.18332,-1234.67
12.19417,-1232.65
12.20502,-1231
12.21045,-1230.29