File: XRD 500C-Jamie DeCoster.csv
theta (500C),intensity (500C)
0.2135,-1608.67
0.22435,-1602.89
0.2352,-1599.63
0.24605,-1597.62
0.25691,-1595.07
0.26776,-1591.76
0.27861,-1589.31
0.28946,-1586.66
0.30031,-1585.11
0.31117,-1583.3
0.32202,-1580.69
0.33287,-1578.62
0.34372,-1578
0.35458,-1576.03
0.36543,-1574.077
0.37628,-1571.76
0.38713,-1566.79
0.39798,-1553.93
0.40884,-1522.39
0.41969,-1466.27
0.43054,-1398.25
0.44139,-1325.27
0.45224,-1263.63
0.4631,-1219.2
0.47395,-1175.74
0.4848,-1158.47
0.49565,-1152.95
0.5065,-1159.07
0.51736,-1171.63
0.52821,-1190.21
0.53906,-1203.63
0.54991,-1219.42
0.56076,-1233.33
0.57162,-1246.16
0.58247,-1257.86
0.59332,-1268.33
0.60417,-1278.32
0.61502,-1286.49
0.62588,-1298.01
0.63673,-1310.25
0.64758,-1322.24
0.65843,-1333.89
0.66928,-1346.39
0.68014,-1358.06
0.69099,-1368.97
0.70184,-1378.57
0.71269,-1387.04
0.72355,-1395.14
0.7344,-1402.64
0.74525,-1410.17
0.7561,-1416.42
0.76695,-1422.78
0.77781,-1428.58
0.78866,-1433.71
0.79951,-1438.76
0.81036,-1443.75
0.82121,-1447.58
0.83207,-1452.02
0.84292,-1455.52
0.85377,-1458.77
0.86462,-1462.18
0.87547,-1465.37
0.88633,-1468.26
0.89718,-1471.03
0.90803,-1474.11
0.91888,-1476.37
0.92973,-1479.13
0.94059,-1481.22
0.95144,-1483.07
0.96229,-1485.02
0.97314,-1486.7
0.98399,-1488.09
0.99485,-1489.87
1.0057,-1491.69
1.01655,-1493.3
1.0274,-1494.84
1.03825,-1495.55
1.04911,-1496.36
1.05996,-1497.42
1.07081,-1499.22
1.08166,-1500.51
1.09252,-1501.78
1.10337,-1502.96
1.11422,-1503.76
1.12507,-1505.13
1.13592,-1506.03
1.14678,-1506.66
1.15763,-1507.83
1.16848,-1508.77
1.17933,-1509.37
1.19018,-1509.85
1.20104,-1510.42
1.21189,-1510.81
1.22274,-1511.39
1.23359,-1511.83
1.24444,-1512.66
1.2553,-1513.1
1.26615,-1513.71
1.277,-1514.56
1.28785,-1515.15
1.2987,-1515.66
1.30956,-1515.99
1.32041,-1516.14
1.33126,-1516.86
1.34211,-1517.47
1.35296,-1517.68
1.36382,-1518.14
1.37467,-1518.84
1.38552,-1519.18
1.39637,-1519.41
1.40722,-1519.76
1.41808,-1519.91
1.42893,-1520.45
1.43978,-1520.45
1.45063,-1520.63
1.46149,-1521.19
1.47234,-1521.4
1.48319,-1521.58
1.49404,-1521.75
1.50489,-1522.08
1.51575,-1522.4
1.5266,-1522.29
1.53745,-1522.59
1.5483,-1522.92
1.55915,-1523.075
1.57001,-1523.28
1.58086,-1523.33
1.59171,-1523.57
1.60256,-1523.76
1.61341,-1523.95
1.62427,-1524.04
1.63512,-1524.1
1.64597,-1524.26
1.65682,-1524.33
1.66767,-1524.42
1.67853,-1524.39
1.68938,-1524.66
1.70023,-1524.8
1.71108,-1524.86
1.72193,-1525.18
1.73279,-1525.32
1.74364,-1525.5
1.75449,-1525.34
1.76534,-1525.57
1.77619,-1525.51
1.78705,-1525.84
1.7979,-1525.76
1.80875,-1525.61
1.8196,-1525.48
1.83046,-1525.63
1.84131,-1525.46
1.85216,-1525.74
1.86301,-1525.69
1.87386,-1525.53
1.88472,-1525.39
1.89557,-1525.67
1.90642,-1525.59
1.91727,-1525.66
1.92812,-1525.66
1.93898,-1525.52
1.94983,-1525.57
1.96068,-1525.65
1.97153,-1525.33
1.98238,-1525.37
1.99324,-1525.07
2.00409,-1524.9
2.01494,-1524.88
2.02579,-1524.77
2.03664,-1524.71
2.0475,-1524.95
2.05835,-1524.72
2.0692,-1524.75
2.08005,-1524.94
2.0909,-1525.15
2.10176,-1525.17
2.11261,-1525.16
2.12346,-1525.13
2.13431,-1525.01
2.14516,-1525.161
2.15602,-1525.28
2.16687,-1525.18
2.17772,-1525.1
2.18857,-1525.07
2.19943,-1525.05
2.21028,-1524.83
2.22113,-1525.04
2.23198,-1524.81
2.24283,-1524.45
2.25369,-1524.47
2.26454,-1524.35
2.27539,-1524.28
2.28624,-1523.94
2.29709,-1523.89
2.30795,-1523.71
2.3188,-1523.55
2.32965,-1523.35
2.3405,-1523.23
2.35135,-1523.07
2.36221,-1522.85
2.37306,-1522.43
2.38391,-1522.11
2.39476,-1521.88
2.40561,-1521.37
2.41647,-1521
2.42732,-1520.65
2.43817,-1520.11
2.44902,-1519.75
2.45987,-1519.17
2.47073,-1518.52
2.48158,-1517.96
2.49243,-1517.24
2.50328,-1516.48
2.51414,-1515.88
2.52499,-1515.06
2.53584,-1514.32
2.54669,-1513.37
2.55754,-1512.28
2.5684,-1511.27
2.57925,-1510.32
2.5901,-1509.08
2.60095,-1507.87
2.6118,-1506.33
2.62266,-1504.91
2.63351,-1503.43
2.64436,-1501.79
2.65521,-1500.13
2.66606,-1498.1
2.67692,-1495.87
2.68777,-1493.32
2.69862,-1490.67
2.70947,-1487.63
2.72032,-1484.52
2.73118,-1480.88
2.74203,-1476.92
2.75288,-1472.33
2.76373,-1467.23
2.77458,-1461.06
2.78544,-1454.32
2.79629,-1446.63
2.80714,-1437.43
2.81799,-1426.78
2.82884,-1414.48
2.8397,-1400.35
2.85055,-1383.5
2.8614,-1363.4
2.87225,-1339.71
2.88311,-1311.16
2.89396,-1276.99
2.90481,-1236.26
2.91566,-1186.38
2.92651,-1125.92
2.93737,-1054.59
2.94822,-969.16
2.95907,-869.777
2.96992,-756.041
2.98077,-632.155
2.99163,-501.794
3.00248,-371.4154
3.01333,-250.601
3.02418,-150.822
3.03503,-78.86437
3.04589,-43.17089
3.05674,-46.35741
3.06759,-89.34655
3.07844,-166.739
3.08929,-273.036
3.10015,-396.933
3.111,-528.965
3.12185,-661.681
3.1327,-786.871
3.14355,-896.551
3.15441,-993.55
3.16526,-1075.88
3.17611,-1145.22
3.18696,-1203.16
3.19781,-1248.29
3.20867,-1286.48
3.21952,-1317.21
3.23037,-1342.73
3.24122,-1363.6
3.25208,-1380.85
3.26293,-1394.77
3.27378,-1405.98
3.28463,-1414.97
3.29548,-1421.97
3.30634,-1426.47
3.31719,-1429.66
3.32804,-1431.13
3.33889,-1430.83
3.34974,-1428.96
3.3606,-1425.29
3.37145,-1419.36
3.3823,-1410.82
3.39315,-1399.63
3.404,-1385.13
3.41486,-1367.03
3.42571,-1344.71
3.43656,-1318.79
3.44741,-1288.73
3.45826,-1255.69
3.46912,-1221.91
3.47997,-1189.4
3.49082,-1160.64
3.50167,-1138.07
3.51252,-1124.87
3.52338,-1122.09
3.53423,-1129.69
3.54508,-1147.59
3.55593,-1174.2
3.56678,-1206.71
3.57764,-1242.31
3.58849,-1278.23
3.59934,-1312.77
3.61019,-1344.46
3.62105,-1372.13
3.6319,-1395.89
3.64275,-1415.47
3.6536,-1431.894
3.66445,-1445.63
3.67531,-1457.07
3.68616,-1466.49
3.69701,-1474.52
3.70786,-1481.3
3.71871,-1487.06
3.72957,-1491.95
3.74042,-1496.15
3.75127,-1499.75
3.76212,-1502.84
3.77297,-1505.72
3.78383,-1508.2
3.79468,-1510.36
3.80553,-1512.18
3.81638,-1513.84
3.82723,-1515.22
3.83809,-1516.56
3.84894,-1517.72
3.85979,-1518.68
3.87064,-1519.68
3.88149,-1520.38
3.89235,-1521.08
3.9032,-1521.75
3.91405,-1522.53
3.9249,-1523.04
3.93575,-1523.62
3.94661,-1524.24
3.95746,-1524.52
3.96831,-1525.08
3.97916,-1525.38
3.99002,-1525.74
4.00087,-1526.24
4.01172,-1526.47
4.02257,-1526.5
4.03342,-1526.94
4.04428,-1527.21
4.05513,-1527.43
4.06598,-1527.66
4.07683,-1527.83
4.08768,-1527.92
4.09854,-1528.09
4.10939,-1528.3
4.12024,-1528.28
4.13109,-1528.4
4.14194,-1528.55
4.1528,-1528.39
4.16365,-1528.48
4.1745,-1528.53
4.18535,-1528.42
4.1962,-1528.38
4.20706,-1528.52
4.21791,-1528.48
4.22876,-1528.26
4.23961,-1528.04
4.25046,-1527.93
4.26132,-1527.92
4.27217,-1527.69
4.28302,-1527.507
4.29387,-1527.33
4.30472,-1527.16
4.31558,-1526.975
4.32643,-1526.86
4.33728,-1526.65
4.34813,-1526.33
4.35899,-1526.04
4.36984,-1525.79
4.38069,-1525.43
4.39154,-1525.15
4.40239,-1525.04
4.41325,-1524.73
4.4241,-1524.28
4.43495,-1523.92
4.4458,-1523.47
4.45665,-1522.99
4.46751,-1522.49
4.47836,-1521.93
4.48921,-1521.49
4.50006,-1520.8
4.51091,-1520.2
4.52177,-1519.51
4.53262,-1518.69
4.54347,-1517.97
4.55432,-1517.02
4.56517,-1516.29
4.57603,-1515.37
4.58688,-1514.32
4.59773,-1513.14
4.60858,-1512.03
4.61943,-1510.64
4.63029,-1509.13
4.64114,-1507.31
4.65199,-1505.33
4.66284,-1503.3
4.67369,-1500.82
4.68455,-1498.02
4.6954,-1494.61
4.70625,-1490.68
4.7171,-1486.19
4.72796,-1480.78
4.73881,-1474.55
4.74966,-1467.05
4.76051,-1458.14
4.77136,-1447.46
4.78222,-1434.74
4.79307,-1419.52
4.80392,-1401.56
4.81477,-1380.22
4.82562,-1354.82
4.83648,-1325.06
4.84733,-1290.25
4.85818,-1250.03
4.86903,-1204.36
4.87988,-1153.19
4.89074,-1096.92
4.90159,-1037.35
4.91244,-975.777
4.92329,-914.867
4.93414,-857.95
4.945,-807.747
4.95585,-768.19
4.9667,-741.054
4.97755,-729.186
4.9884,-733.357
4.99926,-752.856
5.01011,-786.459
5.02096,-832.546
5.03181,-887.071
5.04267,-946.757
5.05352,-1008.55
5.06437,-1069.8
5.07522,-1128.12
5.08607,-1182.04
5.09693,-1230.7
5.10778,-1273.36
5.11863,-1310.57
5.12948,-1342.46
5.14033,-1369.22
5.15119,-1391.85
5.16204,-1410.84
5.17289,-1426.74
5.18374,-1440.11
5.19459,-1451.26
5.20545,-1460.67
5.2163,-1468.68
5.22715,-1475.19
5.238,-1480.76
5.24885,-1485.45
5.25971,-1489.33
5.27056,-1492.77
5.28141,-1495.63
5.29226,-1497.86
5.30311,-1499.86
5.31397,-1501.5
5.32482,-1502.84
5.33567,-1503.99
5.34652,-1504.92
5.35737,-1505.56
5.36823,-1506.15
5.37908,-1506.55
5.38993,-1506.87
5.40078,-1507.12
5.41164,-1507.04
5.42249,-1506.9
5.43334,-1506.65
5.44419,-1506.3
5.45504,-1505.89
5.4659,-1505.3
5.47675,-1504.39
5.4876,-1503.48
5.49845,-1502.28
5.5093,-1500.91
5.52016,-1499.33
5.53101,-1497.57
5.54186,-1495.24
5.55271,-1492.53
5.56356,-1489.57
5.57442,-1485.88
5.58527,-1481.61
5.59612,-1476.62
5.60697,-1470.57
5.61782,-1463.47
5.62868,-1454.95
5.63953,-1444.81
5.65038,-1432.784
5.66123,-1418.48
5.67208,-1401.37
5.68294,-1381.11
5.69379,-1357.56
5.70464,-1329.93
5.71549,-1298.02
5.72634,-1261.78
5.7372,-1221.38
5.74805,-1177.23
5.7589,-1130.28
5.76975,-1081.83
5.78061,-1033.87
5.79146,-988.181
5.80231,-947.2
5.81316,-914.032
5.82401,-890.564
5.83487,-877.723
5.84572,-876.644
5.85657,-887.524
5.86742,-909.523
5.87827,-940.69
5.88913,-979.213
5.89998,-1022.55
5.91083,-1067.94
5.92168,-1113.56
5.93253,-1157.3
5.94339,-1197.67
5.95424,-1233.78
5.96509,-1265.05
5.97594,-1291.31
5.98679,-1312.81
5.99765,-1329.78
6.0085,-1342.65
6.01935,-1351.93
6.0302,-1358.3
6.04105,-1362.59
6.05191,-1365.69
6.06276,-1367.9
6.07361,-1369.86
6.08446,-1372.34
6.09531,-1375.72
6.10617,-1380.25
6.11702,-1385.89
6.12787,-1392.82
6.13872,-1401.09
6.14958,-1410.17
6.16043,-1419.7
6.17128,-1429.77
6.18213,-1439.68
6.19298,-1449.24
6.20384,-1458.34
6.21469,-1466.81
6.22554,-1474.62
6.23639,-1481.7
6.24724,-1488.03
6.2581,-1493.55
6.26895,-1498.39
6.2798,-1502.63
6.29065,-1506.31
6.3015,-1509.57
6.31236,-1512.42
6.32321,-1514.82
6.33406,-1516.93
6.34491,-1518.96
6.35576,-1520.62
6.36662,-1522.13
6.37747,-1523.46
6.38832,-1524.61
6.39917,-1525.52
6.41002,-1526.44
6.42088,-1527.22
6.43173,-1527.93
6.44258,-1528.52
6.45343,-1529.12
6.46428,-1529.73
6.47514,-1530.18
6.48599,-1530.64
6.49684,-1530.97
6.50769,-1531.36
6.51855,-1531.67
6.5294,-1531.94
6.54025,-1532.15
6.5511,-1532.42
6.56195,-1532.56
6.57281,-1532.76
6.58366,-1532.85
6.59451,-1533.09
6.60536,-1533.12
6.61621,-1533.13
6.62707,-1533.22
6.63792,-1533.2
6.64877,-1533.28
6.65962,-1533.12
6.67047,-1533.04
6.68133,-1532.94
6.69218,-1532.81
6.70303,-1532.55
6.71388,-1532.34
6.72473,-1532.13
6.73559,-1531.83
6.74644,-1531.33
6.75729,-1530.96
6.76814,-1530.45
6.77899,-1529.83
6.78985,-1529.03
6.8007,-1528.05
6.81155,-1527.05
6.8224,-1525.79
6.83325,-1524.18
6.84411,-1522.34
6.85496,-1520.14
6.86581,-1517.34
6.87666,-1514.16
6.88752,-1510.33
6.89837,-1505.76
6.90922,-1500.49
6.92007,-1494.29
6.93092,-1487.22
6.94178,-1479.38
6.95263,-1470.5
6.96348,-1461.15
6.97433,-1451.53
6.98518,-1442.06
6.99604,-1432.88
7.00689,-1424.75
7.01774,-1418.04
7.02859,-1413.31
7.03944,-1410.64
7.0503,-1410.5
7.06115,-1412.542
7.072,-1416.83
7.08285,-1423
7.0937,-1430.7
7.10456,-1439.37
7.11541,-1448.42
7.12626,-1457.63
7.13711,-1466.57
7.14796,-1474.82
7.15882,-1482.39
7.16967,-1489.14
7.18052,-1495.09
7.19137,-1500.15
7.20222,-1504.46
7.21308,-1508.07
7.22393,-1511.04
7.23478,-1513.42
7.24563,-1515.31
7.25649,-1516.77
7.26734,-1517.96
7.27819,-1518.85
7.28904,-1519.4
7.29989,-1519.81
7.31075,-1519.96
7.3216,-1519.81
7.33245,-1519.59
7.3433,-1519.07
7.35415,-1518.41
7.36501,-1517.52
7.37586,-1516.42
7.38671,-1515.08
7.39756,-1513.51
7.40841,-1511.65
7.41927,-1509.53
7.43012,-1506.83
7.44097,-1503.74
7.45182,-1500.14
7.46267,-1496
7.47353,-1491.12
7.48438,-1485.48
7.49523,-1478.88
7.50608,-1471.34
7.51693,-1462.64
7.52779,-1452.72
7.53864,-1441.62
7.54949,-1429.25
7.56034,-1415.55
7.5712,-1400.65
7.58205,-1384.65
7.5929,-1367.96
7.60375,-1350.98
7.6146,-1333.98
7.62546,-1317.55
7.63631,-1302.15
7.64716,-1288.62
7.65801,-1277.57
7.66886,-1268.94
7.67972,-1263.21
7.69057,-1260.62
7.70142,-1260.69
7.71227,-1263.18
7.72312,-1267.79
7.73398,-1273.71
7.74483,-1280.5
7.75568,-1287.45
7.76653,-1293.84
7.77738,-1299.32
7.78824,-1303.76
7.79909,-1307.15
7.80994,-1309.5
7.82079,-1310.92
7.83164,-1311.95
7.8425,-1312.99
7.85335,-1314.48
7.8642,-1317.06
7.87505,-1321.73
7.8859,-1326.79
7.89676,-1333.86
7.90761,-1342.66
7.91846,-1352.96
7.92931,-1364.55
7.94017,-1376.91
7.95102,-1389.58
7.96187,-1402.46
7.97272,-1415.26
7.98357,-1427.25
7.99443,-1438.53
8.00528,-1449.08
8.01613,-1458.53
8.02698,-1467.11
8.03783,-1474.66
8.04869,-1481.41
8.05954,-1487.19
8.07039,-1492.2
8.08124,-1496.59
8.09209,-1500.39
8.10295,-1503.55
8.1138,-1506.24
8.12465,-1508.63
8.1355,-1510.7
8.14635,-1512.35
8.15721,-1513.86
8.16806,-1514.92
8.17891,-1516.01
8.18976,-1516.86
8.20061,-1517.52
8.21147,-1518.07
8.22232,-1518.46
8.23317,-1518.63
8.24402,-1518.69
8.25487,-1518.81
8.26573,-1518.8
8.27658,-1518.51
8.28743,-1518.08
8.29828,-1517.57
8.30914,-1516.94
8.31999,-1516.16
8.33084,-1515.12
8.34169,-1514.1
8.35254,-1512.67
8.3634,-1510.91
8.37425,-1509.02
8.3851,-1506.71
8.39595,-1504.03
8.4068,-1500.74
8.41766,-1496.98
8.42851,-1492.65
8.43936,-1487.66
8.45021,-1481.9
8.46106,-1475.35
8.47192,-1467.94
8.48277,-1459.44
8.49362,-1449.95
8.50447,-1439.51
8.51532,-1428.29
8.52618,-1416.2
8.53703,-1403.58
8.54788,-1390.41
8.55873,-1377.24
8.56958,-1364.62
8.58044,-1352.67
8.59129,-1342.22
8.60214,-1333.46
8.61299,-1326.86
8.62384,-1322.86
8.6347,-1321.56
8.64555,-1322.92
8.6564,-1327.05
8.66725,-1333.84
8.67811,-1342.55
8.68896,-1352.99
8.69981,-1364.56
8.71066,-1376.9
8.72151,-1389.61
8.73237,-1402.32
8.74322,-1414.49
8.75407,-1426.16
8.76492,-1436.99
8.77577,-1446.79
8.78663,-1455.61
8.79748,-1463.43
8.80833,-1470.33
8.81918,-1476.27
8.83003,-1481.33
8.84089,-1485.55
8.85174,-1489.11
8.86259,-1491.87
8.87344,-1494.17
8.88429,-1495.67
8.89515,-1496.58
8.906,-1496.97
8.91685,-1496.81
8.9277,-1496.06
8.93855,-1494.75
8.94941,-1492.74
8.96026,-1490.03
8.97111,-1486.72
8.98196,-1482.58
8.99281,-1477.6
9.00367,-1471.7
9.01452,-1464.81
9.02537,-1457.01
9.03622,-1448.18
9.04708,-1438.48
9.05793,-1428.11
9.06878,-1417.13
9.07963,-1405.89
9.09048,-1394.78
9.10134,-1384.24
9.11219,-1375.07
9.12304,-1366.65
9.13389,-1360.15
9.14474,-1355.97
9.1556,-1354
9.16645,-1354.66
9.1773,-1357.88
9.18815,-1363.23
9.199,-1370.62
9.20986,-1379.85
9.22071,-1390.16
9.23156,-1401.37
9.24241,-1412.98
9.25326,-1424.5
9.26412,-1435.65
9.27497,-1446.33
9.28582,-1456.35
9.29667,-1465.46
9.30752,-1473.72
9.31838,-1481.16
9.32923,-1487.81
9.34008,-1493.54
9.35093,-1498.73
9.36178,-1503.24
9.37264,-1507.06
9.38349,-1510.27
9.39434,-1513.28
9.40519,-1515.75
9.41605,-1517.86
9.4269,-1519.71
9.43775,-1521.25
9.4486,-1522.8
9.45945,-1523.96
9.47031,-1524.96
9.48116,-1525.89
9.49201,-1526.68
9.50286,-1527.42
9.51371,-1527.97
9.52457,-1528.47
9.53542,-1529.03
9.54627,-1529.42
9.55712,-1529.72
9.56797,-1529.91
9.57883,-1530.05
9.58968,-1530.24
9.60053,-1530.36
9.61138,-1530.36
9.62223,-1530.42
9.63309,-1530.41
9.64394,-1530.3
9.65479,-1530.07
9.66564,-1529.85
9.67649,-1529.59
9.68735,-1529.25
9.6982,-1528.61
9.70905,-1527.99
9.7199,-1527.36
9.73075,-1526.48
9.74161,-1525.58
9.75246,-1524.54
9.76331,-1523.23
9.77416,-1521.691
9.78502,-1520.12
9.79587,-1518.24
9.80672,-1516.08
9.81757,-1513.79
9.82842,-1511.14
9.83928,-1508.31
9.85013,-1505.22
9.86098,-1501.93
9.87183,-1498.44
9.88268,-1494.97
9.89354,-1491.37
9.90439,-1487.88
9.91524,-1484.55
9.92609,-1481.57
9.93694,-1478.99
9.9478,-1476.82
9.95865,-1475.2
9.9695,-1474.17
9.98035,-1473.85
9.9912,-1474.05
10.00206,-1475
10.01291,-1476.37
10.02376,-1478.26
10.03461,-1480.54
10.04546,-1482.98
10.05632,-1485.57
10.06717,-1488.2
10.07802,-1490.79
10.08887,-1493.11
10.09973,-1495.2
10.11058,-1497.02
10.12143,-1498.64
10.13228,-1499.75
10.14313,-1500.42
10.15399,-1500.78
10.16484,-1500.62
10.17569,-1500.09
10.18654,-1499.12
10.19739,-1497.64
10.20825,-1495.66
10.2191,-1493.02
10.22995,-1489.76
10.2408,-1486.03
10.25165,-1481.55
10.26251,-1476.38
10.27336,-1470.48
10.28421,-1463.78
10.29506,-1456.49
10.30591,-1448.27
10.31677,-1439.56
10.32762,-1430.34
10.33847,-1420.76
10.34932,-1410.69
10.36017,-1400.74
10.37103,-1391.23
10.38188,-1382.07
10.39273,-1373.62
10.40358,-1366.14
10.41443,-1360.062
10.42529,-1355.13
10.43614,-1351.77
10.44699,-1349.949
10.45784,-1349.67
10.4687,-1350.7
10.47955,-1352.88
10.4904,-1356.05
10.50125,-1360.13
10.5121,-1364.75
10.52296,-1369.88
10.53381,-1375.38
10.54466,-1381.29
10.55551,-1387.33
10.56636,-1393.73
10.57722,-1400.29
10.58807,-1407.14
10.59892,-1414.06
10.60977,-1421.27
10.62062,-1428.6
10.63148,-1435.89
10.64233,-1443.18
10.65318,-1450.27
10.66403,-1457.15
10.67488,-1463.71
10.68574,-1469.91
10.69659,-1475.81
10.70744,-1481.23
10.71829,-1486.19
10.72914,-1490.76
10.74,-1494.79
10.75085,-1498.48
10.7617,-1501.67
10.77255,-1504.6
10.7834,-1507.07
10.79426,-1509.25
10.80511,-1511.03
10.81596,-1512.66
10.82681,-1514.05
10.83767,-1515.26
10.84852,-1516.23
10.85937,-1516.91
10.87022,-1517.28
10.88107,-1517.57
10.89193,-1517.62
10.90278,-1517.61
10.91363,-1517.26
10.92448,-1516.7
10.93533,-1515.81
10.94619,-1514.7
10.95704,-1513.29
10.96789,-1511.61
10.97874,-1509.61
10.98959,-1507.16
11.00045,-1504.35
11.0113,-1501.2
11.02215,-1497.68
11.033,-1493.78
11.04385,-1489.53
11.05471,-1485.18
11.06556,-1480.61
11.07641,-1475.97
11.08726,-1471.44
11.09811,-1467.12
11.10897,-1463.26
11.11982,-1459.99
11.13067,-1457.37
11.14152,-1455.53
11.15237,-1454.73
11.16323,-1454.71
11.17408,-1455.81
11.18493,-1457.73
11.19578,-1460.34
11.20664,-1463.67
11.21749,-1467.5
11.22834,-1471.6
11.23919,-1475.96
11.25004,-1480.31
11.2609,-1484.55
11.27175,-1488.55
11.2826,-1492.26
11.29345,-1495.65
11.3043,-1498.68
11.31516,-1501.38
11.32601,-1503.53
11.33686,-1505.15
11.34771,-1506.33
11.35856,-1507.2
11.36942,-1507.69
11.38027,-1507.75
11.39112,-1507.37
11.40197,-1506.67
11.41282,-1505.53
11.42368,-1504.2
11.43453,-1502.52
11.44538,-1500.59
11.45623,-1498.27
11.46708,-1495.86
11.47794,-1493.23
11.48879,-1490.35
11.49964,-1487.63
11.51049,-1484.78
11.52134,-1482.02
11.5322,-1479.22
11.54305,-1476.69
11.5539,-1474.4
11.56475,-1472.5
11.57561,-1470.82
11.58646,-1469.43
11.59731,-1468.35
11.60816,-1467.64
11.61901,-1467.38
11.62987,-1467.34
11.64072,-1467.58
11.65157,-1468.13
11.66242,-1469.06
11.67327,-1470.33
11.68413,-1471.88
11.69498,-1473.69
11.70583,-1475.81
11.71668,-1478.31
11.72753,-1480.96
11.73839,-1483.89
11.74924,-1487
11.76009,-1490.24
11.77094,-1493.64
11.78179,-1496.91
11.79265,-1500.09
11.8035,-1503.22
11.81435,-1506.21
11.8252,-1509.02
11.83605,-1511.69
11.84691,-1514.08
11.85776,-1516.27
11.86861,-1518.24
11.87946,-1520.14
11.89031,-1521.71
11.90117,-1523.12
11.91202,-1524.34
11.92287,-1525.37
11.93372,-1526.22
11.94458,-1527.05
11.95543,-1527.59
11.96628,-1528.01
11.97713,-1528.46
11.98798,-1528.8
11.99884,-1528.98
12.00969,-1528.981
12.02054,-1529.01
12.03139,-1528.86
12.04224,-1528.66
12.0531,-1528.4
12.06395,-1527.9
12.0748,-1527.48
12.08565,-1527.04
12.0965,-1526.44
12.10736,-1525.66
12.11821,-1524.99
12.12906,-1524.29
12.13991,-1523.54
12.15076,-1522.76
12.16162,-1522.01
12.17247,-1521.43
12.18332,-1520.75
12.19417,-1520.17
12.20502,-1519.6
12.21045,-1519.33